<?xml version="1.0" encoding="UTF-8"?>
<Bundle xmlns="http://hl7.org/fhir">  
  <type value="collection"/>
  <entry>
    <fullUrl value="http://example.org/fhir/Practitioner/1"/>
    <resource>
      <Practitioner>
        <id value="1"/>
        <identifier>
          <system value="http://hl7.no/fhir/NamingSystem/HPR"/>
          <value value="465783649328"/>
        </identifier>
      </Practitioner>
    </resource>
  </entry>
  <entry>
    <fullUrl value="http://example.org/fhir/Patient/1"/>
    <resource>
      <Patient>
        <id value="1"/>
        <identifier>
          <system value="http://hl7.no/fhir/NamingSystem/FNR"/>
          <value value="536271738293"/>
        </identifier>
      </Patient>
    </resource>
  </entry>
  <entry>    
    <fullUrl value="http://example.org/fhir/Procedure/1"/>
    <resource>
      <Procedure>   
        <status value="completed"/>
        <code>
          <coding>
            <system value="ncsp-code-system"/>
            <code value="colonoscopy"/>
          </coding>
        </code>
        <subject>
          <reference value="http://example.org/fhir/Patient/1"/>
        </subject>
        <performedDateTime value="2020-11-01T15:00:00+01:00"/>
        <performer>
          <function>
            <text value="colonoscopist"/>
          </function>
          <actor>
            <reference value="http://example.org/fhir/Practitioner/2"/>
          </actor>          
        </performer>
        <performer>
          <function>
            <text value="Nurse"/>
          </function>
          <actor>
            <reference value="http://example.org/fhir/Practitioner/3"/>
          </actor>          
        </performer>
        <location>
          <identifier>
            <system value="http://example.org/fhir/CodeSystem/some-codesystem"/>
            <value value="6738264923"/>
          </identifier>
        </location>
        <reasonCode>
          <text value="Incomplete previous colonoscopy"/>
        </reasonCode>
        <report>
          <reference value="http://example.org/fhir/DiagnosticReport/1"/>
        </report>        
        <complication>
          <coding>
            <system value="http://example.org/fhir/CodeSystem/some-codesystem"/> 
            <code value="bleeding"/>
          </coding>
        </complication>
        <followUp>
          <coding>
            <system value="http://example.org/fhir/some-valueset"/>
            <code value="CT kolografi"/>
          </coding>
          <text value="the patient needs a CT for further diagnostics"/>
        </followUp>
      </Procedure>
    </resource>
  </entry>
  <entry>
    <fullUrl value="http://example.org/fhir/MedicationStatement/1"/>
    <resource>     
      <MedicationStatement>
        <!-- variable no. : 21 -->
        <partOf>
          <reference value="http://example.org/fhir/Procedure/1"/>
        </partOf>
        <status value="active"/>
        <medicationCodeableConcept>
          <coding>
            <system value="http://example.org/fhir/CodeSystem/some-codesystem"/>
            <code value="Afentanil"/>
          </coding>
        </medicationCodeableConcept>
        <subject>
          <reference value="http://example.org/fhir/Patient/1"></reference>
        </subject>
        <effectiveDateTime value="2020-12-15"/>
        <dosage>
          <doseAndRate>
            <doseQuantity>
              <value value="10"/>
              <unit value="mg"/>
              <system value="http://unitsofmeasure.org"/>
              <code value="mg"/>      
            </doseQuantity>               
          </doseAndRate>
        </dosage>
      </MedicationStatement>
    </resource>
  </entry>
  <entry>   
    <fullUrl value="http://example.org/fhir/DiagnosticReport/1"/>
    <resource>
      <DiagnosticReport>
        <status value="final"/>
        <code>
          <text value="colonoscopy report"/>
          <!-- replace with proper coding -->
        </code>
        <subject>
          <reference value="http://example.org/fhir/Patient/1"/>
        </subject>
        <result>
          <reference value="http://hl7.org/fhir/Observation/lesion-1"/>
        </result>
        <result>
          <reference value= "http://example.org/fhir/Observation/mucosa/"/>
        </result>
        <!-- variable no. : 34, 35 -->
        <conclusionCode>
          <coding>
            <system value="http://hl7.org/fhir/sid/icd-10"/>
            <code value="C18.0"/>
            <display value="Malignant neoplasm of colon - Caecum"/>
          </coding>
        </conclusionCode>
      </DiagnosticReport>        
    </resource>
  </entry>
  <entry>
    <fullUrl value="http://example.org/fhir/Observation/lesion-1"/>
    <resource>     
      <Observation xmlns="http://hl7.org/fhir"
        xmlns:xsi="http://www.w3.org/2001/XMLSchema-instance"
        xsi:schemaLocation="http://hl7.org/fhir file:/C:/Users/Marten/OneDrive%20-%20Firely/FHIR/Schemas/R4/observation.xsd">  
        <status value="final"/>
        <code>
          <coding>     
            <system value="http://snomed.info/sct"/>
            <code value="364636000"/>
            <display value="Lesion observable (observable entity)"/>
          </coding>
        </code>        
        <bodySite>       
          <coding>
            <system value="http://snomed.info/sct"/>
            <code value="9040008"/>    
            <display value="Ascending colon structure (body structure)"/>      
          </coding>         
        </bodySite>
        <component>
          <code>
            <coding>
              <system value= "http://snomed.info/sct"/>
              <code value ="41329004"/>
              <display value ="Polyp (morphologic abnormality)"/>
            </coding>
          </code>
          <valueCodeableConcept>
            <coding>
              <system value= "http://parispc.no"/>
              <code value ="ii-b-flat"/>
              <display value ="II b Flat"/>
            </coding>
          </valueCodeableConcept>
        </component>
        <component>
          <code>
            <coding>
              <system value = "http://snomed.info/sct"/>
              <code value= "246116008"/>
              <display value ="Lesion size (observable entity) "/>
            </coding>            
          </code>
          <valueQuantity>
            <value value="3"/>
            <unit value="mm"/>
            <system value="http://unitsofmeasure.org"/>
            <code value="mm"/>
          </valueQuantity>
        </component>
        <component>
          <code>
            <coding>
              <system value = "http://canceregistry.no/fhir/CodeSystem/data-elements"/>
              <code value = "tissue-removing-method"/>
              <display value = "Metode for fjerning eller vevsprøve (flervalg)"/>        
            </coding>            
          </code>
          <valueCodeableConcept>
            <coding>
              <system value = "http://terminology.hl7.org/CodeSystem/v3-NullFlavor"/>
              <code value = "OTH"/>
              <display value = "other"/>        
            </coding>        
          </valueCodeableConcept>
        </component>    
        <component>
          <code>
            <coding>
              <system value = "http://canceregistry.no/fhir/CodeSystem/data-elements"/>
              <code value = "lesion-sent-to-pathologist"/>
              <display value = "Vevsprøve sendt til patolog"/>        
            </coding>            
          </code>
          <valueBoolean value="true"/>         
        </component>        
      </Observation>      
    </resource>
  </entry> 
  <entry>
    <fullUrl value="http://example.org/fhir/Observation/mucosa/"/>
    <resource>
      <Observation>
        <status value="final"/>
        <code>
          <!-- need proper coding to replace this -->
          <text value="Mucosa"/>
        </code>     
        <!-- variable no. : 26 -->
        <valueCodeableConcept>
          <!-- need proper coding to replace this -->
          <text value="Normal"/>
        </valueCodeableConcept>
        <!-- variable no. : 27 -->
        <note>
          <text value="some free text"/>
        </note>
        <!-- variable no. : 27 -->
        <bodySite>
          <coding>
            <system value="http://example.org/fhir/CodeSystem/some-codesystem"/> 
            <code value="caecum"/>
          </coding>
        </bodySite>        
      </Observation>
    </resource>
  </entry>
  <entry>
    <fullUrl value="http://example.org/fhir/Practitioner/2"/>
    <resource>
      <Practitioner>
        <id value="2"/>
        <identifier>
          <system value="http://hl7.no/fhir/NamingSystem/HPR"/>
          <value value="63784293743"/>
        </identifier>
      </Practitioner>
    </resource>
  </entry>
  <entry>
    <fullUrl value="http://example.org/fhir/Practitioner/3"/>
    <resource>
      <Practitioner>
        <id value="3"/>
        <identifier>
          <system value="http://hl7.no/fhir/NamingSystem/HPR"/>
          <value value="63784293743"/>
        </identifier>
      </Practitioner>
    </resource>
  </entry>
</Bundle>