<?xml version="1.0" encoding="UTF-8"?>
<Bundle xmlns="http://hl7.org/fhir" xmlns:xsi="http://www.w3.org/2001/XMLSchema-instance" xsi:schemaLocation="http://hl7.org/fhir http://hl7.org/fhir/R4/bundle.xsd">
  <identifier>
    <system value="http://kreftregisteret.no/fhir/NamingSystem/colonoscopy-report-message-id"/>
    <value value="474783273248"/>
  </identifier>
  <type value="collection"/>  
  <entry>
    <fullUrl value="http://example.org/fhir/Patient/1"/>
    <resource>
      <Patient>
        <id value="1"/>
        <!-- var nr. 1 -->
        <identifier>
          <system value="http://hl7.no/fhir/NamingSystem/FNR"/>
          <value value="536271738293"/>
        </identifier>
        <!-- var nr. 2 -->
        <name>         
          <extension url="http://hl7.no/fhir/StructureDefinition/no-basis-middlename">
            <valueString value="Erik"/>
          </extension>          
          <family value="Eksempel" />
          <given value="Espen" />
        </name>
      </Patient>
    </resource>
  </entry>
  <entry>    
    <fullUrl value="http://example.org/fhir/Procedure/1"/>
    <resource>
      <Procedure>  
        <extension url="http://kreftregisteret.no/fhir/StructureDefinition/colonoscopyreport-laxatives-extension">
          <!-- var nr. 17 -->
          <extension url="type">
            <valueCodeableConcept>
              <coding>
                <system value="Model-specific"/>
                <code value="laxabon"/>
              </coding>
            </valueCodeableConcept>
          </extension>
          <!-- var nr. 18 -->
          <extension url="takenAsSplitDose">
            <valueCodeableConcept>
              <coding>
                <system value="http://terminology.hl7.org/CodeSystem/v3-NullFlavor"/>
                <code value="NA"/>
              </coding>
            </valueCodeableConcept>
          </extension>
        </extension>
        <extension url="http://kreftregisteret.no/fhir/StructureDefinition/colonoscopyreport-complicationconsequence-extension">
          <!-- var nr. 56 -->
           <valueCodeableConcept>
             <coding>
               <system value="http://snomed.info/sct"/>
               <code value="32485007"/>
             </coding>
           </valueCodeableConcept>
        </extension>
        <extension url="http://kreftregisteret.no/fhir/StructureDefinition/colonoscopyreport-partofbowelreached-extension">
          <!-- var nr. 21 -->
          <valueCodeableConcept>
            <coding>
              <system value="http://snomed.info/sct"/>
              <code value="32713005"/>
            </coding>
          </valueCodeableConcept>
        </extension>
        <extension url="http://kreftregisteret.no/fhir/StructureDefinition/colonoscopyreport-withdrawaltime">
          <!-- var nr. 24 -->
          <valueDuration>
            <value value="2"/>
            <unit value="min"/>
            <system value="http://unitsofmeasure.org"/>
            <code value="min"/>
          </valueDuration>
        </extension>
        <extension url="http://kreftregisteret.no/fhir/StructureDefinition/colonoscopyreport-caecumreacheddocumentation-extension">
          <!-- var nr. 24 -->
          <valueBoolean value="true"/>
        </extension>        
        <extension url="http://kreftregisteret.no/fhir/StructureDefinition/colonoscopyreport-medicationgiven-extension">
          <!-- var nr. 29 -->
          <valueBoolean value="true"/>
        </extension>
        <extension url="http://kreftregisteret.no/fhir/StructureDefinition/colonoscopyreport-sedationlevel-extension">
          <!-- var nr. 29 -->
          <valueCodeableConcept>
            <coding>
              <system value="http://snomed.info/sct"/>
              <code value="73761001"/>
            </coding>
          </valueCodeableConcept>
        </extension>
        <status value="completed"/>
        <category>
          <!-- var nr. 20 -->
          <coding>
            <system value="model-specific"/>
            <code value="diagnostisk-biopsi"/>           
          </coding>
        </category>
        <code>
          <!-- var nr. 61 -->
          <coding>
            <system value="http://snomed.info/sct"/>
            <code value="73761001"/>
          </coding>
        </code>
        <subject>
          <reference value="http://example.org/fhir/Patient/1"/>
        </subject>
        <!-- var nr. 5 -->
        <performedDateTime value="2020-11-01T15:00:00+01:00"/>
        <!-- var nr. 6, 7, 8, 9 -->
        <performer>
          <function>
            <coding>
              <system value="http://snomed.info/sct"/>
              <code value="8921000202108"/>
              <display value="Primary performing endoscopist (person)"/>
            </coding>
          </function>
          <actor>
            <reference value="http://example.org/fhir/Practitioner/2"/>
          </actor>          
        </performer>
        <performer>
          <function>
            <coding>
              <system value="http://snomed.info/sct"/>
              <code value="8951000202101"/>
              <display value="Main nurse assisting procedure (person)"/>
            </coding>
          </function>
          <actor>
            <reference value="http://example.org/fhir/Practitioner/3"/>
          </actor>          
        </performer>
        <location>          
          <reference value="http://example.org/fhir/Practitioner/1"/>
        </location>
        <!-- var nr. 11 -->
        <reasonCode>
          <coding>
            <system value="model-specific"/>
            <code value="polyppkontroll"/>
          </coding>
        </reasonCode>
        <report>
          <reference value="http://example.org/fhir/DiagnosticReport/1"/>
        </report>     
        <!-- var nr. 55 -->
        <complication>
          <coding>
            <system value="http://snomed.info/sct"/> 
            <code value="712510007"/>
          </coding>
        </complication>         
      </Procedure>
    </resource>
  </entry>
  <entry>
    <fullUrl value="http://example.org/fhir/MedicationStatement/1"/>
    <resource>     
      <MedicationStatement>
        <!-- var nr. 30 -->
        <partOf>
          <reference value="http://example.org/fhir/Procedure/1"/>
        </partOf>
        <status value="active"/>
        <medicationCodeableConcept>
          <coding>
            <system value="http://snomed.info/sct "/>
            <code value="387560008"/>
          </coding>
        </medicationCodeableConcept>
        <subject>
          <reference value="http://example.org/fhir/Patient/1"/>
        </subject>
        <effectiveDateTime value="2020-12-15"/>
        <dosage>
          <doseAndRate>
            <doseQuantity>
              <value value="10"/>
              <unit value="mg"/>
              <system value="http://unitsofmeasure.org"/>
              <code value="mg"/>      
            </doseQuantity>               
          </doseAndRate>
        </dosage>
      </MedicationStatement>
    </resource>
  </entry>
  <entry>   
    <fullUrl value="http://example.org/fhir/DiagnosticReport/1"/>
    <resource>
      <DiagnosticReport>
        <status value="final"/>
        <code>
          <coding>
            <system value="http://snomed.info/sct"/>
            <code value="128145008"/>
          </coding>
        </code>
        <subject>
          <reference value= "http://example.org/fhir/Patient/1"/>
        </subject>
        <result>
          <reference value= "http://example.org/fhir/Observation/lesion-1"/>
        </result>
        <result>
          <reference value= "http://example.org/fhir/Observation/bbps"/>
        </result>
        <result>
          <reference value= "http://example.org/fhir/Observation/numberoflesions"/>
        </result>
        <result>
          <reference value= "http://example.org/fhir/Observation/lumen"/>
        </result>
        <conclusionCode>
          <!-- var nr. 59 -->
          <extension url="http://kreftregisteret.no/fhir/StructureDefinition/diagnosticreport-conclusion-ismaindiagnosis">
            <valueBoolean value="true"/>
          </extension>      
          <!-- var nr. 59 (when extension ismaindiagnosis == true), 60 -->
          <coding>
            <system value="http://hl7.org/fhir/sid/icd-10"/>
            <code value="C18.0"/>
            <display value="Malignant neoplasm of colon - Caecum"/>
          </coding>
        </conclusionCode>
      </DiagnosticReport>        
    </resource>
  </entry>
  <entry>
    <fullUrl value="http://example.org/fhir/Observation/numberoflesions"/>
    <resource>
      <Observation>
        <!-- var nr. 34 -->
        <status value="final"/>
        <code>
          <coding>
            <system value="http://snomed.info/sct"/>
            <code value="246206008"/>
          </coding>
        </code>
        <valueQuantity>
          <value value="1"/>
        </valueQuantity>
      </Observation>
    </resource>
  </entry>
  <entry>
    <fullUrl value="http://example.org/fhir/Observation/lesion-1"/>
    <resource>     
      <Observation xmlns="http://hl7.org/fhir">  
        <status value="final"/>
        <code>
          <coding>     
            <system value="http://snomed.info/sct"/>
            <code value="300577008"/>
          </coding>
        </code>                
        <component>
          <code>
            <coding>
              <!-- lesion diameter -->
              <system value = "http://snomed.info/sct"/>
              <code value = "10291000202102"/>             
            </coding>            
          </code>
          <!-- var nr. 38 -->
          <valueQuantity>
            <value value="3"/>
            <unit value="mm"/>
            <system value="http://unitsofmeasure.org"/>
            <code value="mm"/>
          </valueQuantity>
        </component>     
      </Observation>      
    </resource>
  </entry> 
  <entry>
    <fullUrl value="http://example.org/fhir/Observation/bbps"/>
    <resource>
      <Observation>
        <status value="final"/>
        <code>
          <coding>
            <!-- boston bowel preparation scale -->
            <system value="http://snomed.info.sct"/>
            <code value="722818007"/>
          </coding>
        </code>     
       <component>
         <!-- var nr. 26 -->
         <code>
           <!-- right colon -->
           <coding>
             <system value="http://snomed.info/sct"/>
             <code value="8901000202102"/>
           </coding>
         </code>
         <valueCodeableConcept>
           <coding>
             <system value="http://snomed.info/sct"/>
             <code value="10291000132101"/>
           </coding>
         </valueCodeableConcept>
       </component>
        <component>
          <!-- var nr. 27 -->
          <code>
            <!-- transversum -->
            <coding>
              <system value="http://snomed.info/sct"/>
              <code value="8911000202100"/>
            </coding>
          </code>
          <valueCodeableConcept>
            <coding>
              <system value="http://snomed.info/sct"/>
              <code value="10301000132102"/>
            </coding>
          </valueCodeableConcept>
        </component>
        <component>
          <!-- var nr. 28 -->
          <code>
            <!-- left colon -->
            <coding>
              <system value="http://snomed.info/sct"/>
              <code value="8891000202103"/>
            </coding>
          </code>
          <valueCodeableConcept>
            <coding>
              <system value="http://snomed.info/sct"/>
              <code value="10311000132100"/>
            </coding>
          </valueCodeableConcept>
        </component>
      </Observation>
    </resource>
  </entry>
  <entry>
    <fullUrl value="http://example.org/fhir/Observation/lumen"/>
    <resource>
      <Observation>
        <!-- var nr. 32 -->
        <status value="final"/>
        <code>
          <coding>
            <system value="http://snomed.info/sct"/>
            <code value="TBD"/>
          </coding>
        </code>
        <valueCodeableConcept>
          <coding>
            <system value="http://snomed.info/sct"/>
            <code value="17621005"/>
          </coding>
        </valueCodeableConcept>
      </Observation>
    </resource>
  </entry>
  <entry>
    <fullUrl value="http://example.org/fhir/List/medication-list"/>
    <resource>
      <List>
        <status value="current"/>
        <mode value="snapshot"/>
        <code>
          <coding>
            <system value="http://terminology.hl7.org/CodeSystem/list-example-use-codes"/>
            <code value="medications"/>
          </coding>
        </code>
        <subject>
          <reference value="http://example.org/fhir/Patient/1"/>
        </subject>
        <entry>
          <item>
            <reference value="http://example.org/fhir/MedicationStatement/2"/>
          </item>
        </entry>
        <entry>
          <item>
            <reference value="http://example.org/fhir/MedicationStatement/3"/>
          </item>
        </entry>
      </List>
    </resource>
  </entry>
  <entry>
    <fullUrl value="http://example.org/fhir/MedicationStatement/2"/>
    <resource>     
      <MedicationStatement>      
        <status value="active"/>
        <!-- var nr. 13 -->
        <medicationCodeableConcept>
          <coding>
            <system value="http://snomed.info/sct"/>
            <code value="372756006"/>
            <display value="Warfarin (substance)"/>
          </coding>
        </medicationCodeableConcept>
        <subject>
          <reference value="http://example.org/fhir/Patient/1"/>
        </subject>      
      </MedicationStatement>
    </resource>
  </entry>
  <entry>
    <fullUrl value="http://example.org/fhir/MedicationStatement/3"/>
    <resource>     
      <MedicationStatement>      
        <status value="active"/>
        <medicationCodeableConcept>
          <coding>
            <system value="http://snomed.info/sct"/>
            <code value="387458008"/>
            <display value="Aspirin (substance)"/>
          </coding>
        </medicationCodeableConcept>
        <subject>
          <reference value="http://example.org/fhir/Patient/1"/>
        </subject>      
      </MedicationStatement>
    </resource>
  </entry>
  <entry>
    <fullUrl value="http://example.org/fhir/Practitioner/2"/>
    <resource>
      <Practitioner>
        <id value="2"/>
        <identifier>
          <system value="http://hl7.no/fhir/NamingSystem/HPR"/>
          <value value="63784293743"/>
        </identifier>
      </Practitioner>
    </resource>
  </entry>
  <entry>
    <fullUrl value="http://example.org/fhir/Practitioner/3"/>
    <resource>
      <Practitioner>
        <id value="3"/>
        <identifier>
          <system value="http://hl7.no/fhir/NamingSystem/HPR"/>
          <value value="63784293743"/>
        </identifier>
      </Practitioner>
    </resource>
  </entry>
  <entry>
    <fullUrl value="http://example.org/fhir/Location/1"/>
    <resource>
      <Location>
        <managingOrganization>
          <reference value="http://example.org/fhir/Organization/1"/>
        </managingOrganization>
      </Location>
    </resource>
  </entry>
  <entry>
    <fullUrl value="http://example.org/fhir/Organization/1"/>
    <resource>
      <Organization>
        <!-- var nr. 3 -->
        <identifier>
          <system value="urn:oid:2.16.578.1.12.4.1.4.102"/>
          <value value="46372864397"/>
        </identifier>
        <!-- var nr. 4 -->
        <name value="Test Clinic"/>
      </Organization>
    </resource>
  </entry>
</Bundle>