<?xml version="1.0" encoding="UTF-8"?>
<Bundle xmlns="http://hl7.org/fhir">
  <type value="collection"/>  
  <entry>
    <fullUrl value="http://example.org/fhir/Patient/1"/>
    <resource>
      <Patient>
        <id value="1"/>
        <identifier>
          <system value="http://hl7.no/fhir/NamingSystem/FNR"/>
          <value value="536271738293"/>
        </identifier>
      </Patient>
    </resource>
  </entry>
  <entry>    
    <fullUrl value="http://example.org/fhir/Procedure/1"/>
    <resource>
      <Procedure>   
        <extension url="http://kreftregisteret.no/fhir/StructureDefinition/colonoscopyreport-complicationconsequence-extension">
           <valueCodeableConcept>
             <coding>
               <system value="http://snomed.info/sct"/>
               <code value="32485007"/>
             </coding>
           </valueCodeableConcept>
        </extension>
        <extension url="http://kreftregisteret.no/fhir/StructureDefinition/colonoscopyreport-partofbowelreached-extension">
          <valueCodeableConcept>
            <coding>
              <system value="http://snomed.info/sct"/>
              <code value="32713005"/>
            </coding>
          </valueCodeableConcept>
        </extension>
        <extension url="http://kreftregisteret.no/fhir/StructureDefinition/colonoscopyreport-caecumintubated-extension">
          <valueBoolean value="true"/>
        </extension>
        <extension url="http://kreftregisteret.no/fhir/StructureDefinition/colonoscopyreport-procedureduration-extension">
          <valueDuration>
            <value value="30"/>
            <unit value="min"/>
            <system value="http://unitsofmeasure.org"/>
            <code value="min"/>
          </valueDuration>          
        </extension>
        <extension url="http://kreftregisteret.no/fhir/StructureDefinition/colonoscopyreport-withdrawaltime">
          <valueDuration>
            <value value="2"/>
            <unit value="min"/>
            <system value="http://unitsofmeasure.org"/>
            <code value="min"/>
          </valueDuration>
        </extension>
        <extension url="http://colonoscopyregistry.no/fhir/StructureDefinition/colonoscopyreport-polypsremoved">
          <valueCodeableConcept>
            <coding>
              <system value="http://terminology.hl7.org/CodeSystem/v2-0136"/>
              <code value="Y"/>
            </coding>
          </valueCodeableConcept>
        </extension>
        <extension url="http://kreftregisteret.no/fhir/StructureDefinition/colonoscopyreport-medicationgiven-extension">
          <valueBoolean value="true"/>
        </extension>
        <extension url="http://kreftregisteret.no/fhir/StructureDefinition/colonoscopyreport-anestheticsgiven-extension">
          <valueCodeableConcept>
            <coding>
              <system value="http://snomed.info/sct"/>
              <code value="73761001"/>
            </coding>
          </valueCodeableConcept>
        </extension>
        <status value="completed"/>
        <code>
          <coding>
            <system value="http://snomed.info/sct"/>
            <code value="73761001"/>
          </coding>
        </code>
        <subject>
          <reference value="http://example.org/fhir/Patient/1"/>
        </subject>
        <performedDateTime value="2020-11-01T15:00:00+01:00"/>
        <performer>
          <function>
            <text value="colonoscopist"/>
          </function>
          <actor>
            <reference value="http://example.org/fhir/Practitioner/2"/>
          </actor>          
        </performer>
        <performer>
          <function>
            <text value="Nurse"/>
          </function>
          <actor>
            <reference value="http://example.org/fhir/Practitioner/3"/>
          </actor>          
        </performer>
        <location>          
          <identifier>
            <!-- resh OID -->
            <system value="urn:oid:2.16.578.1.12.4.1.4.102"/>
            <value value="36287639"/>
          </identifier>
        </location>
        <reasonCode>
          <coding>
            <system value="model-specific"/>
            <code value="polyppkontroll"/>
          </coding>
        </reasonCode>
        <report>
          <reference value="http://example.org/fhir/DiagnosticReport/1"/>
        </report>        
        <complication>
          <coding>
            <system value="http://snomed.info/sct"/> 
            <code value="712510007"/>
          </coding>
        </complication>
        <followUp>
          <extension url="http://cancerregistration.no/fhir/StructureDefinition/colonoscopyreport-monthsuntilnextcolonoscopy-extension">
            <valueInteger value="6"/>
          </extension>
          <coding>
            <system value="http://snomed.info/sct"/>
            <code value="10061000202102"/>
          </coding>
        </followUp>
      </Procedure>
    </resource>
  </entry>
  <entry>
    <fullUrl value="http://example.org/fhir/MedicationStatement/1"/>
    <resource>     
      <MedicationStatement>
        <partOf>
          <reference value="http://example.org/fhir/Procedure/1"/>
        </partOf>
        <status value="active"/>
        <medicationCodeableConcept>
          <coding>
            <system value="http://snomed.info/sct "/>
            <code value="387560008"/>
          </coding>
        </medicationCodeableConcept>
        <subject>
          <reference value="http://example.org/fhir/Patient/1"/>
        </subject>
        <effectiveDateTime value="2020-12-15"/>
        <dosage>
          <doseAndRate>
            <doseQuantity>
              <value value="10"/>
              <unit value="mg"/>
              <system value="http://unitsofmeasure.org"/>
              <code value="mg"/>      
            </doseQuantity>               
          </doseAndRate>
        </dosage>
      </MedicationStatement>
    </resource>
  </entry>
  <entry>   
    <fullUrl value="http://example.org/fhir/DiagnosticReport/1"/>
    <resource>
      <DiagnosticReport>
        <status value="final"/>
        <code>
          <coding>
            <system value="http://snomed.info/sct"/>
            <code value="128145008"/>
          </coding>
        </code>
        <subject>
          <reference value= "http://example.org/fhir/Patient/1"/>
        </subject>
        <result>
          <reference value= "http://example.org/fhir/Observation/lesion-1"/>
        </result>
        <result>
          <reference value= "http://example.org/fhir/Observation/bbps"/>
        </result>
        <result>
          <reference value= "http://example.org/fhir/Observation/numberoflesions"/>
        </result>
        <conclusionCode>
          <extension url="http://kreftregisteret.no/fhir/StructureDefinition/diagnosticreport-conclusion-ismaindiagnosis">
            <valueBoolean value="true"/>
          </extension>          
          <coding>
            <system value="http://hl7.org/fhir/sid/icd-10"/>
            <code value="C18.0"/>
            <display value="Malignant neoplasm of colon - Caecum"/>
          </coding>
        </conclusionCode>
      </DiagnosticReport>        
    </resource>
  </entry>
  <entry>
    <fullUrl value="http://example.org/fhir/Observation/numberoflesions"/>
    <resource>
      <Observation>
        <status value="final"/>
        <code>
          <coding>
            <system value="http://snomed.info/sct"/>
            <code value="246206008"/>
          </coding>
        </code>
        <valueQuantity>
          <value value="1"/>
        </valueQuantity>
      </Observation>
    </resource>
  </entry>
  <entry>
    <fullUrl value="http://example.org/fhir/Observation/lesion-1"/>
    <resource>     
      <Observation xmlns="http://hl7.org/fhir">  
        <status value="final"/>
        <code>
          <coding>     
            <system value="http://snomed.info/sct"/>
            <code value="300577008"/>
          </coding>
        </code>        
        <bodySite>       
          <coding>
            <system value="http://snomed.info/sct"/>
            <code value="32713005"/>    
            <display value="Cecum structure (body structure)"/>      
          </coding>         
        </bodySite>
        <component>
          <code>
            <coding>
              <!-- morphology -->
              <system value= "http://snomed.info/sct"/>
              <code value ="8961000202103"/>
            </coding>
          </code>
          <valueCodeableConcept>
            <coding>
              <system value= "http://snomed.info/sct"/>
              <code value ="9161000202106"/>
              <display value ="Paris polyp classification IIb - completely flat polyp (finding)"/>
            </coding>
          </valueCodeableConcept>
        </component>
        <component>
          <code>
            <coding>
              <system value = "http://snomed.info/sct"/>
              <code value = "10291000202102"/>             
            </coding>            
          </code>
          <valueQuantity>
            <value value="3"/>
            <unit value="mm"/>
            <system value="http://unitsofmeasure.org"/>
            <code value="mm"/>
          </valueQuantity>
        </component>
        <component>
          <code>
            <coding>
              <system value = "Model-specific"/>
              <code value = "metode-fjerning-vevsprove"/>
              <display value = "Metode for fjerning eller vevsprøve (flervalg)"/>        
            </coding>            
          </code>
          <valueCodeableConcept>
            <coding>
              <system value = "http://terminology.hl7.org/CodeSystem/v3-NullFlavor"/>
              <code value = "OTH"/>
              <display value = "Other"/>        
            </coding>        
          </valueCodeableConcept>
        </component>    
        <component>
          <code>
            <!-- Sent to pathologist -->
            <coding>
              <system value = "http://snomed.info/sct"/>
              <code value = "168395004"/>   
            </coding>            
          </code>
          <valueBoolean value="true"/>         
        </component>     
        <component>
          <code>
            <!-- Endoscopically removed -->
            <coding>
              <system value = "http://snomed.info/sct"/>
              <code value = "10741000202101"/>
              <display value = "Er lesjonen endoskopisk komplett fjernet (ett valg)"/>        
            </coding>            
          </code>
          <valueCodeableConcept>
            <coding>
              <system value = "http://terminology.hl7.org/CodeSystem/v2-0136"/>
              <code value = "Y"/> 
            </coding>        
          </valueCodeableConcept>      
        </component>   
        <component>
          <code>
            <!-- cancer suspect -->
            <coding>
              <system value = "http://snomed.info/sct"/>
              <code value = "9971000202100"/>
            </coding>            
          </code>
          <valueBoolean value="true"/>
        </component>   
      </Observation>      
    </resource>
  </entry> 
  <entry>
    <fullUrl value="http://example.org/fhir/Observation/bbps"/>
    <resource>
      <Observation>
        <status value="final"/>
        <code>
          <coding>
            <!-- boston bowel preparation scale -->
            <system value="http://snomed.info.sct"/>
            <code value="722818007"/>
          </coding>
        </code>     
       <component>
         <code>
           <!-- right colon -->
           <coding>
             <system value="http://snomed.info/sct"/>
             <code value="8901000202102"/>
           </coding>
         </code>
         <valueCodeableConcept>
           <coding>
             <system value="http://snomed.info/sct"/>
             <code value="10291000132101"/>
           </coding>
         </valueCodeableConcept>
       </component>
        <component>
          <code>
            <!-- transversum -->
            <coding>
              <system value="http://snomed.info/sct"/>
              <code value="8911000202100"/>
            </coding>
          </code>
          <valueCodeableConcept>
            <coding>
              <system value="http://snomed.info/sct"/>
              <code value="10301000132102"/>
            </coding>
          </valueCodeableConcept>
        </component>
        <component>
          <code>
            <!-- left colon -->
            <coding>
              <system value="http://snomed.info/sct"/>
              <code value="8891000202103"/>
            </coding>
          </code>
          <valueCodeableConcept>
            <coding>
              <system value="http://snomed.info/sct"/>
              <code value="10311000132100"/>
            </coding>
          </valueCodeableConcept>
        </component>
      </Observation>
    </resource>
  </entry>
  <entry>
    <fullUrl value="http://example.org/fhir/List/problem-list"/>
    <resource>
      <List>
        <status value="current"/>
        <mode value="snapshot"/>
        <code>
          <coding>
            <system value="http://terminology.hl7.org/CodeSystem/list-example-use-codes"/>
            <code value="problems"/>
          </coding>
        </code>
        <subject>
          <reference value="http://example.org/fhir/Patient/1"/>
        </subject>
        <entry>
          <item>
            <reference value="http://example.org/fhir/Condition/1"/>
          </item>
        </entry>
      </List>
    </resource>
  </entry>
  <entry>
    <fullUrl value="http://example.org/fhir/Condition/1"/>
    <resource>
      <Condition>
        <code>
          <coding>
            <system value="http://snomed.info/sct"/>
            <code value="73211009"/>
            <display value="Diabetes mellitus (disorder)"/>
          </coding>
        </code>
        <subject>
          <reference value="http://example.org/fhir/Patient/1"/>
        </subject>        
      </Condition>
    </resource>
  </entry>
  <entry>
    <fullUrl value="http://example.org/fhir/List/medication-list"/>
    <resource>
      <List>
        <status value="current"/>
        <mode value="snapshot"/>
        <code>
          <coding>
            <system value="http://terminology.hl7.org/CodeSystem/list-example-use-codes"/>
            <code value="medications"/>
          </coding>
        </code>
        <subject>
          <reference value="http://example.org/fhir/Patient/1"/>
        </subject>
        <entry>
          <item>
            <reference value="http://example.org/fhir/MedicationStatement/2"/>
          </item>
        </entry>
        <entry>
          <item>
            <reference value="http://example.org/fhir/MedicationStatement/3"/>
          </item>
        </entry>
      </List>
    </resource>
  </entry>
  <entry>
    <fullUrl value="http://example.org/fhir/MedicationStatement/2"/>
    <resource>     
      <MedicationStatement>      
        <status value="active"/>
        <medicationCodeableConcept>
          <coding>
            <system value="http://snomed.info/sct"/>
            <code value="372756006"/>
            <display value="Warfarin (substance)"/>
          </coding>
        </medicationCodeableConcept>
        <subject>
          <reference value="http://example.org/fhir/Patient/1"/>
        </subject>      
      </MedicationStatement>
    </resource>
  </entry>
  <entry>
    <fullUrl value="http://example.org/fhir/MedicationStatement/3"/>
    <resource>     
      <MedicationStatement>      
        <status value="active"/>
        <medicationCodeableConcept>
          <coding>
            <system value="http://snomed.info/sct"/>
            <code value="387458008"/>
            <display value="Aspirin (substance)"/>
          </coding>
        </medicationCodeableConcept>
        <subject>
          <reference value="http://example.org/fhir/Patient/1"/>
        </subject>      
      </MedicationStatement>
    </resource>
  </entry>
  <entry>
    <fullUrl value="http://example.org/fhir/Practitioner/1"/>
    <resource>
      <Practitioner>
        <id value="1"/>
        <identifier>
          <system value="http://hl7.no/fhir/NamingSystem/HPR"/>
          <value value="465783649328"/>
        </identifier>
      </Practitioner>
    </resource>
  </entry>
  <entry>
    <fullUrl value="http://example.org/fhir/Practitioner/2"/>
    <resource>
      <Practitioner>
        <id value="2"/>
        <identifier>
          <system value="http://hl7.no/fhir/NamingSystem/HPR"/>
          <value value="63784293743"/>
        </identifier>
      </Practitioner>
    </resource>
  </entry>
  <entry>
    <fullUrl value="http://example.org/fhir/Practitioner/3"/>
    <resource>
      <Practitioner>
        <id value="3"/>
        <identifier>
          <system value="http://hl7.no/fhir/NamingSystem/HPR"/>
          <value value="63784293743"/>
        </identifier>
      </Practitioner>
    </resource>
  </entry>
</Bundle>