<?xml version="1.0" encoding="UTF-8"?>
<Bundle xmlns="http://hl7.org/fhir" xmlns:xsi="http://www.w3.org/2001/XMLSchema-instance" xsi:schemaLocation="http://hl7.org/fhir http://hl7.org/fhir/R4/bundle.xsd">
  <meta>
    <profile value="http://kreftregisteret.no/fhir/StructureDefinition/colonoscopyreport-bundle-krg"/>
  </meta>
  <identifier>
    <system value="http://kreftregisteret.no/fhir/NamingSystem/colonoscopy-report-id"/>
    <value value="474783273248"/>
  </identifier>
  <type value="collection"/>  
  <entry>
    <fullUrl value="http://example.org/fhir/Patient/1"/>
    <resource>
      <Patient>
        <id value="1"/>
        <meta>
          <profile value="http://kreftregisteret.no/fhir/StructureDefinition/colonoscopyreport-patient-krg"/>
        </meta>
        <!-- var nr. 1 -->
        <identifier>
          <system value="http://hl7.no/fhir/NamingSystem/FNR"/>
          <value value="536271738293"/>
        </identifier>
        <!-- var nr. 2 -->
        <name>         
          <extension url="http://hl7.no/fhir/StructureDefinition/no-basis-middlename">
            <valueString value="Erik"/>
          </extension>          
          <family value="Eksempel" />
          <given value="Espen" />
        </name>
      </Patient>
    </resource>
  </entry>
  <entry>    
    <fullUrl value="http://example.org/fhir/Procedure/1"/>
    <resource>
      <Procedure>   
        <id value="1"/>
        <meta>
          <profile value="http://kreftregisteret.no/fhir/StructureDefinition/colonoscopyreport-colonoscopy-krg"/>
        </meta>
        <extension url="http://kreftregisteret.no/fhir/StructureDefinition/colonoscopyreport-complicationconsequence-extension">
          <!-- var nr. 56 -->
           <valueCodeableConcept>
             <coding>
               <system value="http://snomed.info/sct"/>
               <code value="32485007"/>
               <display value="Hospital admission (procedure)"/>
             </coding>
           </valueCodeableConcept>
        </extension>
        <extension url="http://kreftregisteret.no/fhir/StructureDefinition/colonoscopyreport-partofbowelreached-extension">
          <!-- var nr. 21 -->
          <valueCodeableConcept>
            <coding>
              <system value="http://snomed.info/sct"/>
              <code value="32713005"/>
              <display value="Cecum structure (body structure)"/>
            </coding>
          </valueCodeableConcept>
        </extension>
        <extension url="http://kreftregisteret.no/fhir/StructureDefinition/colonoscopyreport-caecumintubated-extension">
          <!-- var nr. 22 -->
          <valueBoolean value="true"/>
        </extension>
        <extension url="http://kreftregisteret.no/fhir/StructureDefinition/colonoscopyreport-procedureduration-extension">
          <!-- var nr. 23 -->
          <valueDuration>
            <value value="30"/>
            <unit value="min"/>
            <system value="http://unitsofmeasure.org"/>
            <code value="min"/>
          </valueDuration>          
        </extension>
        <extension url="http://kreftregisteret.no/fhir/StructureDefinition/colonoscopyreport-withdrawaltime">
          <!-- var nr. 24 -->
          <valueDuration>
            <value value="2"/>
            <unit value="min"/>
            <system value="http://unitsofmeasure.org"/>
            <code value="min"/>
          </valueDuration>
        </extension>
        <extension url="http://kreftregisteret.no/fhir/StructureDefinition/colonoscopyreport-polypsremoved">
          <!-- var nr. 58 -->
          <valueCodeableConcept>
            <coding>
              <system value="http://terminology.hl7.org/CodeSystem/v2-0136"/>
              <code value="Y"/>
            </coding>
          </valueCodeableConcept>
        </extension>
        <extension url="http://kreftregisteret.no/fhir/StructureDefinition/colonoscopyreport-medicationgiven-extension">
          <!-- var nr. 29 -->
          <valueBoolean value="true"/>
        </extension>
        <extension url="http://kreftregisteret.no/fhir/StructureDefinition/colonoscopyreport-sedationlevel-extension">
          <!-- var nr. 29 -->
          <valueCodeableConcept>
            <coding>
              <system value="http://snomed.info/sct"/>
              <code value="10821000202101"/>
              <display value="Narkose eller dyp sedasjon med anestesistøtte"/>
            </coding>
          </valueCodeableConcept>
        </extension>
        <status value="completed"/>
        <category>
          <!-- var nr. 20 -->
          <coding>
            <system value="http://ehelse.no/fhir/CodeSystem/colonoscopy-model-specific-codes"/>
            <code value="diagnostisk-biopsi"/>    
            <display value="Diagnostisk med biopsi"/>
          </coding>
        </category>
        <code>
          <!-- var nr. 61 -->
          <coding>
            <system value="http://snomed.info/sct"/>
            <code value="73761001"/>
            <display value="Colonoscopy (procedure)"/>
          </coding>
        </code>
        <subject>
          <reference value="http://example.org/fhir/Patient/1"/>
        </subject>
        <!-- var nr. 5 -->
        <performedDateTime value="2020-11-01T15:00:00+01:00"/>
        <!-- var nr. 6, 7, 8, 9 -->
        <performer>
          <function>
            <coding>
              <system value="http://snomed.info/sct"/>
              <code value="8921000202108"/>
              <display value="Primary performing endoscopist (person)"/>
            </coding>
          </function>
          <actor>
            <reference value="http://example.org/fhir/Practitioner/2"/>
          </actor>          
        </performer>
        <performer>
          <function>
            <coding>
              <system value="http://snomed.info/sct"/>
              <code value="8951000202101"/>
              <display value="Main nurse assisting procedure (person)"/>
            </coding>
          </function>
          <actor>
            <reference value="http://example.org/fhir/Practitioner/3"/>
          </actor>          
        </performer>
        <location>          
          <reference value="http://example.org/fhir/Location/1"/>
        </location>
        <!-- var nr. 11 -->
        <reasonCode>
          <coding>
            <system value="http://ehelse.no/fhir/CodeSystem/colonoscopy-model-specific-codes"/>
            <code value="indikasjon-polyppkontroll"/>
          </coding>
        </reasonCode>
        <report>
          <reference value="http://example.org/fhir/DiagnosticReport/1"/>
        </report>     
        <!-- var nr. 55 -->
        <complication>
          <coding>
            <system value="http://snomed.info/sct"/> 
            <code value="712510007"/>
            <display value="Intestinal hemorrhage (disorder)"/>
          </coding>
        </complication>        
        <followUp>
          <!-- var nr. 63 -->
          <extension url="http://kreftregisteret.no/fhir/StructureDefinition/colonoscopyreport-monthsuntilnextcolonoscopy-extension">
            <valueInteger value="6"/>
          </extension>
          <!-- var nr. 62 -->
          <coding>
            <system value="http://snomed.info/sct"/>
            <code value="10061000202102"/>
            <display value="Virtual computed tomography colonoscopy planned (situation)"/>
          </coding>
        </followUp>
      </Procedure>
    </resource>
  </entry>
  <entry>
    <fullUrl value="http://example.org/fhir/MedicationStatement/1"/>
    <resource>     
      <MedicationStatement>
        <id value="1"/>
        <meta>
          <profile value="http://kreftregisteret.no/fhir/StructureDefinition/colonoscopyreport-medicationstatement-krg"/>
        </meta>
        <!-- var nr. 30 -->
        <partOf>
          <reference value="http://example.org/fhir/Procedure/1"/>
        </partOf>
        <status value="active"/>
        <medicationCodeableConcept>
          <coding>
            <system value="http://snomed.info/sct "/>
            <code value="387560008"/>
          </coding>
        </medicationCodeableConcept>
        <subject>
          <reference value="http://example.org/fhir/Patient/1"/>
        </subject>
        <dosage>
          <doseAndRate>
            <doseQuantity>
              <value value="10"/>
              <unit value="mg"/>
              <system value="http://unitsofmeasure.org"/>
              <code value="mg"/>      
            </doseQuantity>               
          </doseAndRate>
        </dosage>
      </MedicationStatement>
    </resource>
  </entry>
  <entry>   
    <fullUrl value="http://example.org/fhir/DiagnosticReport/1"/>
    <resource>
      <DiagnosticReport>
        <id value="1"/>
        <meta>
          <profile value="http://kreftregisteret.no/fhir/StructureDefinition/colonoscopyreport-diagnosticreport-krg"/>
        </meta>
        <status value="final"/>
        <code>
          <coding>
            <system value="http://snomed.info/sct"/>
            <code value="73761001"/>
            <display value="Colonoscopy (procedure)"/>
          </coding>
        </code>
        <subject>
          <reference value= "http://example.org/fhir/Patient/1"/>
        </subject>
        <result>
          <reference value= "http://example.org/fhir/Observation/lesion-1"/>
        </result>
        <result>
          <reference value= "http://example.org/fhir/Observation/bbps"/>
        </result>
        <result>
          <reference value= "http://example.org/fhir/Observation/numberoflesions"/>
        </result>
        <conclusionCode>
          <!-- var nr. 59 -->
          <extension url="http://kreftregisteret.no/fhir/StructureDefinition/diagnosticreport-conclusion-ismaindiagnosis">
            <valueBoolean value="true"/>
          </extension>      
          <!-- var nr. 59 (when extension ismaindiagnosis == true), 60 -->
          <coding>
            <system value="http://hl7.org/fhir/sid/icd-10"/>
            <code value="C18.0"/>
            <display value="Malignant neoplasm of colon - Caecum"/>
          </coding>
        </conclusionCode>
      </DiagnosticReport>        
    </resource>
  </entry>
  <entry>
    <fullUrl value="http://example.org/fhir/Observation/numberoflesions"/>
    <resource>
      <Observation>
        <id value="numberoflesions"/>
        <meta>
          <profile value="http://kreftregisteret.no/fhir/StructureDefinition/colonoscopyreport-numberoflesions-krg"/>
        </meta>
        <!-- var nr. 34 -->
        <status value="final"/>
        <code>
          <coding>
            <system value="http://snomed.info/sct"/>
            <code value="246206008"/>
            <display value="Number of lesions (observable entity)"/>
          </coding>
        </code>
        <valueQuantity>
          <value value="1"/>
        </valueQuantity>
      </Observation>
    </resource>
  </entry>
  <entry>
    <fullUrl value="http://example.org/fhir/Observation/lesion-1"/>
    <resource>     
      <Observation xmlns="http://hl7.org/fhir">  
        <id value="lesion-1"/>
        <meta>
          <profile value="http://kreftregisteret.no/fhir/StructureDefinition/colonoscopyreport-lesion-krg"/>
        </meta>
        <!-- var nr. 35 -->
        <identifier>
          <system value="http://kreftregisteret.no/fhir/NamingSystem/lesion-number"/>
          <value value="1"/>
        </identifier>
        <status value="final"/>
        <code>
          <coding>     
            <system value="http://snomed.info/sct"/>
            <code value="300577008"/>
            <display value="Finding of lesion (finding)"/>
          </coding>
        </code>      
        <!-- var nr. 36 -->
        <bodySite>       
          <coding>
            <system value="http://snomed.info/sct"/>
            <code value="32713005"/>    
            <display value="Cecum structure (body structure)"/>      
          </coding>         
        </bodySite>
        <component>
          <code>
            <coding>
              <system value= "http://snomed.info/sct"/>
              <code value ="8961000202103"/>
              <display value="Paris endoscopic classification of polyps (assessment scale)"/>
            </coding>
          </code>
          <!-- var nr. 37 -->
          <valueCodeableConcept>
            <coding>
              <system value= "http://snomed.info/sct"/>
              <code value ="9161000202106"/>
              <display value ="Paris polyp classification IIb - completely flat polyp (finding)"/>
            </coding>
          </valueCodeableConcept>
        </component>
        <component>
          <code>
            <coding>
              <!-- lesion diameter -->
              <system value = "http://snomed.info/sct"/>
              <code value = "10291000202102"/>       
              <display value="Lesion size given by largest diameter (observable entity)"/>
            </coding>            
          </code>
          <!-- var nr. 38 -->
          <valueQuantity>
            <value value="3"/>
            <unit value="mm"/>
            <system value="http://unitsofmeasure.org"/>
            <code value="mm"/>
          </valueQuantity>
        </component>
        <component>
          <code>
            <coding>
              <system value = "http://ehelse.no/fhir/CodeSystem/colonoscopy-model-specific-codes"/>
              <code value = "metode-fjerning-vevsprove"/>
              <display value = "Metode for fjerning eller vevsprøve"/>        
            </coding>            
          </code>
          <valueCodeableConcept>
            <!-- var nr. 39 -->
            <coding>
              <system value = "http://terminology.hl7.org/CodeSystem/v3-NullFlavor"/>
              <code value = "OTH"/>
              <display value = "Other"/>        
            </coding>        
          </valueCodeableConcept>
        </component>    
        <component>
          <code>
            <!-- Sent to pathologist -->
            <coding>
              <system value = "http://snomed.info/sct"/>
              <code value = "168395004"/>   
              <display value="Tissue sent for histology (situation)"/>
            </coding>            
          </code>
          <!-- var nr. 42 -->
          <valueBoolean value="true"/>         
        </component>     
        <component>
          <code>
            <!-- Endoscopically removed -->
            <coding>
              <system value = "http://snomed.info/sct"/>
              <code value = "10741000202101"/>
              <display value = "Er lesjonen endoskopisk komplett fjernet (ett valg)"/>        
            </coding>            
          </code>
          <!-- var nr. 40 -->
          <valueCodeableConcept>
            <coding>
              <system value = "http://terminology.hl7.org/CodeSystem/v2-0136"/>
              <code value = "Y"/> 
              <display value="Yes"/>
            </coding>        
          </valueCodeableConcept>      
        </component>   
        <component>
          <code>
            <!-- cancer suspect -->
            <coding>
              <system value = "http://snomed.info/sct"/>
              <code value = "9971000202100"/>
            </coding>            
          </code>
          <!-- var nr. 41 -->
          <valueBoolean value="true"/>
        </component>   
      </Observation>      
    </resource>
  </entry> 
  <entry>
    <fullUrl value="http://example.org/fhir/Observation/bbps"/>
    <resource>
      <Observation>
        <id value="bbps"/>
        <meta>
          <profile value="http://kreftregisteret.no/fhir/StructureDefinition/colonoscopyreport-bostonbowelpreparationscale-krg"/>
        </meta>
        <status value="final"/>
        <code>
          <coding>
            <system value="http://snomed.info/sct"/>
            <code value="722818007"/>
            <display value=" Boston bowel preparation scale (assessment scale)"/>
          </coding>
        </code>     
       <component>
         <!-- var nr. 26 -->
         <code>
           <coding>
             <system value="http://snomed.info/sct"/>
             <code value="8901000202102"/>
             <display value="Boston bowel preparation skala høyre kolon"/>
           </coding>
         </code>
         <valueCodeableConcept>
           <coding>
             <system value="http://snomed.info/sct"/>
             <code value="10291000132101"/>
             <display value="Portion of mucosa of colon segment seen, but other areas of colon segment not well seen due to staining, residual stool and/or opaque liquid (finding)/"></display>
           </coding>
         </valueCodeableConcept>
       </component>
        <component>
          <!-- var nr. 27 -->
          <code>
            <!-- transversum -->
            <coding>
              <system value="http://snomed.info/sct"/>
              <code value="8911000202100"/>
              <display value="Boston bowel preparation skala kolon transversum"/>
            </coding>
          </code>
          <valueCodeableConcept>
            <coding>
              <system value="http://snomed.info/sct"/>
              <code value="10301000132102"/>
              <display value="Minor amount of residual staining, small fragments of stool and/or opaque liquid, but mucosa of colon segment seen well (finding)"/>
            </coding>
          </valueCodeableConcept>
        </component>
        <component>
          <!-- var nr. 28 -->
          <code>
            <!-- left colon -->
            <coding>
              <system value="http://snomed.info/sct"/>
              <code value="8891000202103"/>
              <display value="Boston bowel preparation skala venstre kolon"/>
            </coding>
          </code>
          <valueCodeableConcept>
            <coding>
              <system value="http://snomed.info/sct"/>
              <code value="10311000132100"/>
              <display value="Entire mucosa of colon segment seen well with no residual staining, small fragments of stool or opaque liquid (finding)"/>
            </coding>
          </valueCodeableConcept>
        </component>
      </Observation>
    </resource>
  </entry>
  <entry>
    <fullUrl value="http://example.org/fhir/List/problem-list"/>
    <resource>
      <List>
        <id value="problem-list"/>
        <meta>
          <profile value="http://kreftregisteret.no/fhir/StructureDefinition/colonoscopyreport-problemlist-krg"/>
        </meta>
        <status value="current"/>
        <mode value="snapshot"/>
        <code>
          <coding>
            <system value="http://terminology.hl7.org/CodeSystem/list-example-use-codes"/>
            <code value="problems"/>
          </coding>
        </code>
        <subject>
          <reference value="http://example.org/fhir/Patient/1"/>
        </subject>
        <entry>
          <item>
            <reference value="http://example.org/fhir/Condition/1"/>
          </item>
        </entry>
      </List>
    </resource>
  </entry>
  <entry>
    <fullUrl value="http://example.org/fhir/Condition/1"/>
    <resource>
      <Condition>
        <id value="1"/>
        <meta>
          <profile value="http://kreftregisteret.no/fhir/StructureDefinition/colonoscopyreport-condition-krg"/>
        </meta>
        <!-- var nr. 12 -->
        <code>
          <coding>
            <system value="http://snomed.info/sct"/>
            <code value="73211009"/>
            <display value="Diabetes mellitus (disorder)"/>
          </coding>
        </code>
        <subject>
          <reference value="http://example.org/fhir/Patient/1"/>
        </subject>        
      </Condition>
    </resource>
  </entry>
  <entry>
    <fullUrl value="http://example.org/fhir/List/medication-list"/>
    <resource>
      <List>
        <id value="medication-list"/>
        <meta>
          <profile value="http://kreftregisteret.no/fhir/StructureDefinition/colonoscopyreport-medicationlist-krg"/>
        </meta>
        <status value="current"/>
        <mode value="snapshot"/>
        <code>
          <coding>
            <system value="http://terminology.hl7.org/CodeSystem/list-example-use-codes"/>
            <code value="medications"/>
          </coding>
        </code>
        <subject>
          <reference value="http://example.org/fhir/Patient/1"/>
        </subject>
        <entry>
          <item>
            <reference value="http://example.org/fhir/MedicationStatement/2"/>
          </item>
        </entry>
        <entry>
          <item>
            <reference value="http://example.org/fhir/MedicationStatement/3"/>
          </item>
        </entry>
      </List>
    </resource>
  </entry>
  <entry>
    <fullUrl value="http://example.org/fhir/MedicationStatement/2"/>
    <resource>     
      <MedicationStatement>     
        <id value="2"/>
        <meta>
          <profile value="http://kreftregisteret.no/fhir/StructureDefinition/colonoscopyreport-current-medication-krg"/>
        </meta>
        <status value="active"/>
        <!-- var nr. 13 -->
        <medicationCodeableConcept>
          <coding>
            <system value="http://snomed.info/sct"/>
            <code value="372756006"/>
            <display value="Warfarin (substance)"/>
          </coding>
        </medicationCodeableConcept>
        <subject>
          <reference value="http://example.org/fhir/Patient/1"/>
        </subject>      
      </MedicationStatement>
    </resource>
  </entry>
  <entry>
    <fullUrl value="http://example.org/fhir/MedicationStatement/3"/>
    <resource>     
      <MedicationStatement>      
        <id id="3"/>
        <meta>
          <profile value="http://kreftregisteret.no/fhir/StructureDefinition/colonoscopyreport-current-medication-krg"/>
        </meta>
        <status value="active"/>
        <medicationCodeableConcept>
          <coding>
            <system value="http://snomed.info/sct"/>
            <code value="387458008"/>
            <display value="Aspirin (substance)"/>
          </coding>
        </medicationCodeableConcept>
        <subject>
          <reference value="http://example.org/fhir/Patient/1"/>
        </subject>      
      </MedicationStatement>
    </resource>
  </entry>
  <entry>
    <fullUrl value="http://example.org/fhir/Practitioner/2"/>
    <resource>
      <Practitioner>
        <id value="2"/>
        <meta>
          <profile value="http://hl7.no/fhir/StructureDefinition/no-basis-Practitioner"/>
        </meta>
        <identifier>
          <system value="http://hl7.no/fhir/NamingSystem/HPR"/>
          <value value="63784293743"/>
        </identifier>
      </Practitioner>
    </resource>
  </entry>
  <entry>
    <fullUrl value="http://example.org/fhir/Practitioner/3"/>
    <resource>
      <Practitioner>
        <id value="3"/>
        <meta>
          <profile value="http://hl7.no/fhir/StructureDefinition/no-basis-Practitioner"/>
        </meta>
        <identifier>
          <system value="http://hl7.no/fhir/NamingSystem/HPR"/>
          <value value="63784293743"/>
        </identifier>
      </Practitioner>
    </resource>
  </entry>
  <entry>
    <fullUrl value="http://example.org/fhir/Location/1"/>
    <resource>
      <Location>
        <id value="1"/>
        <meta>
          <profile value="http://hl7.no/fhir/StructureDefinition/no-basis-Location"/>
        </meta>
        <managingOrganization>
          <reference value="http://example.org/fhir/Organization/1"/>
        </managingOrganization>
      </Location>
    </resource>
  </entry>
  <entry>
    <fullUrl value="http://example.org/fhir/Organization/1"/>
    <resource>
      <Organization>
        <id value="1"/>
        <meta>
          <profile value="http://hl7.no/fhir/StructureDefinition/no-basis-Organization"/>
        </meta>
        <!-- var nr. 3 -->
        <identifier>
          <system value="urn:oid:2.16.578.1.12.4.1.4.102"/>
          <value value="46372864397"/>
        </identifier>
        <!-- var nr. 4 -->
        <name value="Test Clinic"/>
      </Organization>
    </resource>
  </entry>
</Bundle>